Folder: 2026-MCM-ICM-AutoPipeline/A题/battery_data/5Nature论文电池数据集/Capacity_data_csv

Note: README.md
# MCM 2026 O-Award Battle System 🏆

> **目标：Outstanding Winner (O奖)**  
> 一套完整的美赛多智能体协作系统，为三人战队提供从审题到提交的全流程支持。

---

## 🎯 系统概览

```
┌─────────────────────────────────────────────────────────────────────────────────┐
│                     MCM 2026 O-Award Multi-Agent System                          │
├─────────────────────────────────────────────────────────────────────────────────┤
│                                                                                  │
│   👤 主策师 (Master Strategist)                                                  │
│   ├── @strategist 审题发散                                                       │
│   └── @redcell 质量攻击                                                          │
│                                                                                  │
│   👤 技术导演 (Tech Director)          👤 内容架构师 (Content Architect)          │
│   ├── @executor 代码生成                ├── @executor 论文撰写                   │
│   └── @knowledge:model 模型检索         └── @knowledge:viz 可视化检索            │
│                                                                                  │
│   ════════════════════════════════════════════════════════════════════════════  │
│                                                                                  │
│   📚 知识库: 模型库 | 论文分析 | 可视化规范 | 数据源                             │
│   🛠️ 工具: Qoder/Trae + Claude Opus 4.5 + Nano Banana Pro + Origin              │
│                                                                                  │
└─────────────────────────────────────────────────────────────────────────────────┘
```

---

## 📦 项目结构

```
meisai/
├── .qoder/rules/                    # AI规则层（自动加载）
│   ├── agents.md                    # Agent完整规则（@strategist/@executor/@redcell）
│   ├── mcm_ultimate_system.md       # 主规则+时间线+检查清单
│   └── skills.md                    # Skills调用规则
│
├── .kiro/steering/                  # 人类参考层（手动查阅）
│   ├── modeling-prompts-final.md    # 10大建模提示词
│   ├── modeling-prompts-宏观.md     # 方法论层面决策
│   ├── modeling-prompts微观.md      # 技术实现细节
│   ├── data-sources-and-brainstorm.md # 数据源+脑暴方法
│   ├── battle-quick-reference.md    # 快速参考卡
│   ├── 生成图的提示词.txt            # Nano Banana提示词
│   ├── 人工写作总指南.pdf            # 写作规范+Golden Structure
│   ├── 比赛实战资源调用指南.md       # 资源调用流程图
│   └── 三人战队实战手册.md           # 三人分工手册（打印分发！）
│
├── 知识库/                          # 知识资产层（@knowledge调用）
│   ├── 模型库1.xlsx, 模型库2.xlsx, 模型库3.xlsx  # 300+模型参考
│   ├── C题模型知识库_优化版.xlsx    # C题专用模型索引
│   ├── 论文分析结果_优化版.xlsx     # O奖论文结构分析
│   ├── 可视化知识库.csv             # 图表类型&设计规范
│   └── 分析统计报告.txt             # 统计汇总
│
├── MCMICM/                          # 历年O奖论文原文
│   ├── 2022美赛优秀论文集/
│   ├── 2023/C/
│   └── 2024/C/
│
├── src/                             # 分析代码
│   ├── data/                        # 数据处理模块
│   ├── models/                      # 模型实现
│   ├── analysis/                    # 分析模块
│   └── output/                      # 输出模块


File: Capacity_data.csv
Cycle,Capacity_Ah
0,37.20271
5,34.51914
10,34.07005
15,33.74975
20,33.54879
25,33.2665
30,33.05934
35,32.86387
40,32.69147
45,32.79373
50,32.59867
55,32.45003
60,32.30145
65,32.00484
70,31.83152
75,31.67409
80,31.51869
85,31.52708
90,31.36125
95,31.11822
100,30.71305
105,30.47258
110,30.19904
115,29.83496
120,29.49157
125,29.22588
130,28.74296
135,28.2444
140,27.89986
145,27.84268
150,27.61069
155,26.99298
160,26.79925
165,26.46313
170,26.05509
175,25.62528
180,25.14023
185,24.43739
190,24.00634
195,23.70942
200,36.7717
205,32.96715
210,32.1315
215,31.68117
220,31.24853
225,31.01906
230,30.76906
235,30.56924
240,30.38649
245,30.23085
250,30.1589
255,29.99051
260,29.83163
265,29.66263
270,29.62393
275,29.51865
280,29.44575
285,29.39301
290,29.08581
295,28.99254
300,28.91847
305,28.96362
310,28.87152
315,28.66045
320,28.55213
325,28.5034
330,28.5133
335,28.47226
340,28.41211
345,28.31351
350,28.24336
355,28.1111
360,28.11749
365,28.06431
370,27.95226
375,27.75411
380,27.73809
385,27.67734
390,27.80012
395,27.78768
400,27.46615
405,27.23247
410,27.32331
415,27.70159
420,27.67093
425,27.63007
430,27.56011
435,26.77427
440,26.67924
445,26.77299
450,35.06084
455,28.31015
460,27.48992
465,27.12985
470,27.09483
475,27.11537
480,27.07044
485,27.03669
490,26.89334
495,26.86529
500,26.72864
505,26.63318
510,26.54711
515,26.62249
520,26.4655
525,26.39674
530,26.31483
535,26.29715
540,26.10639
545,26.0019
550,25.99972
555,25.95035
560,25.922
565,25.90986
570,25.79543
575,25.73736
580,25.71058
585,25.59598
590,25.50365
595,25.45988
600,25.3439
605,25.36581
610,25.27105
615,25.19944
620,25.29547
625,24.96707
630,24.88258
635,24.80646
640,24.72546
645,25.03909
650,25.06197
655,24.88461
660,24.53826
665,24.46796
670,24.01542
675,24.01242
680,34.23352
685,32.0696
690,31.49226
695,31.18109
700,31.07727
705,31.01463
710,30.66349
715,30.52542
720,30.73209
725,30.87375
730,30.75604
735,30.46833
740,30.25681
745,29.58415
750,29.41446
755,29.85303
760,40.11331
765,38.30385
770,37.69489
775,37.27494
780,36.90946
785,36.5757
790,36.19407
795,35.87683
800,35.54109
805,35.22156
810,34.97941
815,34.72359
820,34.4614
825,34.21148
830,33.90219
835,33.67131
840,33.42313
845,33.21836
850,33.0491
855,32.83899
860,32.5735
865,32.3227
870,32.02565
875,31.80216
880,31.6035
885,31.51259
890,31.34141
895,31.1265
900,30.88141
905,30.73888
910,30.65274
915,30.51399
920,30.23128
925,30.06929
930,29.82169
935,29.65529
940,29.58148
945,29.37505
950,29.16364
955,28.9011
960,28.71029
965,28.52041
970,28.48845
975,28.28193
980,28.05614
985,27.90631
990,27.81318
995,27.60821
1000,27.30778
1005,27.10062
1010,26.88619
1015,26.75929
1020,26.53125
1025,26.23031
1030,25.8971
1035,25.63669
1040,25.30349
1045,24.92278
1050,24.34909
1055,23.4867
1060,41.87066
1065,40.8994
1070,40.50452
1075,40.19771
1080,39.89863
1085,39.75293
1090,39.50496
1095,39.37012
1100,39.23398
1105,39.03842
1110,38.86923
1115,38.71333
1120,38.5992
1125,38.45159
1130,38.2688
1135,38.12156
1140,37.98397
1145,37.81192
1150,37.65624
1155,37.44874
1160,37.28806
1165,37.09174
1170,36.93755
1175,36.8125
1180,36.60392
1185,36.41551
1190,36.20231
1195,36.05267
1200,35.87791
1205,35.68158
1210,35.48159
1215,35.32725
1220,35.20739
1225,35.09308
1230,34.96049
1235,34.80455
1240,34.57349
1245,34.37492
1250,34.21637
1255,34.0965
1260,33.95771
1265,33.85493
1270,33.71532
1275,33.57215
1280,33.37127
1285,33.15319
1290,32.96568
1295,32.83465
1300,32.70775
1305,32.5949
1310,32.41526
1315,32.27242
1320,32.11633
1325,31.95911
1330,31.75261
1335,31.60213
1340,31.51685
1345,31.36872
1350,31.1851
1355,31.01811
1357,30.9215

File: Capacity_data_35.csv
Cycle,Capacity_Ah
0,40.47377
1,39.74161
2,39.1738
3,38.65528
4,38.22607
5,37.87145
6,37.59252
7,37.36191
8,37.19987
9,37.19053
10,37.07739
11,36.88368
12,36.71736
13,36.59978
14,36.66619
15,36.61086
16,36.54638
17,36.33753
18,36.22464
19,36.23458
20,36.27027
21,36.24041
22,36.10664
23,35.98213
24,35.91292
25,36.03076
26,36.00745
27,35.98432
28,35.81165
29,35.72769
30,35.6542
31,35.62122
32,35.57282
33,35.51669
34,35.4675
35,35.41944
36,35.37658
37,35.42832
38,35.38379
39,35.31179
40,35.2768
41,35.31015
42,35.40696
43,35.40902
44,35.36947
45,35.18052
46,35.11957
47,35.19459
48,35.19698
49,35.19098
50,35.02784
51,34.9345
52,34.87566
53,34.97723
54,34.97314
55,34.93844
56,34.75487
57,34.6835
58,34.64528
59,34.78701
60,34.77623
61,34.6877
62,34.55703
63,34.49965
64,34.61965
65,34.61021
66,34.59667
67,34.46577
68,34.40389
69,34.34647
70,34.33038
71,34.32636
72,34.29674
73,34.21107
74,34.17712
75,34.12276
76,34.18008
77,34.16113
78,34.07373
79,34.00637
80,33.94027
81,34.06709
82,34.06584
83,34.04285
84,33.89384
85,33.82988
86,33.78654
87,33.92259
88,33.96246
89,33.91859
90,33.7575
91,33.67991
92,33.63489
93,33.78833
94,33.76785
95,33.69954
96,33.502
97,33.45794
98,33.51377
99,33.5352
100,33.53273
101,33.37627
102,33.26068
103,33.17338
104,33.32144
105,33.31123
106,33.30519
107,33.11
108,33.04688
109,32.97825
110,32.93397
111,32.89887
112,32.85307
113,32.80703
114,32.73345
115,32.68134
116,32.68865
117,32.72046
118,32.64846
119,32.58965
120,32.52301
121,32.66622
122,32.69885
123,32.73229
124,32.64357
125,32.46152
126,32.39149
127,32.51917
128,32.58237
129,32.56738
130,32.41632
131,32.28181
132,32.19617
133,32.35413
134,32.40361
135,32.41264
136,32.19931
137,32.11455
138,32.04681
139,32.22603
140,32.35702
141,32.28245
142,32.04891
143,31.96108
144,31.91122
145,32.10659
146,32.1689
147,32.15735
148,31.92556
149,31.87202
150,31.82756
151,31.87825
152,31.99591
153,31.84475
154,31.71867
155,31.64521
156,31.55058
157,31.60953
158,31.58792
159,31.47969
160,31.37955
161,31.31315
162,31.48355
163,31.48882
164,31.54634
165,31.4611
166,31.27481
167,31.20275
168,31.24755
169,31.35092
170,31.33202
171,31.26068
172,31.07767
173,31.05681
174,31.09778
175,31.23527
176,31.22958
177,31.08514
178,30.92484
179,30.83761
180,30.92514
181,31.0453
182,31.03223
183,30.90312
184,30.75195
185,30.6794
186,30.78745
187,30.81818
188,30.82216
189,30.68209
190,30.54901
191,30.46555
192,30.40186
193,30.42561
194,30.4238
195,30.2978
196,30.21637
197,30.13971
198,30.08155
199,30.12989
200,30.11057
201,30.03775
202,29.97516
203,29.92896
204,30.12663
205,30.234
206,30.23469
207,30.14482
208,29.95819
209,29.89194
210,29.94963
211,30.03257
212,30.03789
213,29.96034
214,29.80735
215,29.74995
216,29.73704
217,29.87723
218,29.91549
219,29.91701
220,29.75089
221,29.66541
222,29.61697
223,29.77625
224,29.79162
225,29.78941
226,29.52461
227,29.45142
228,29.39835
229,29.59366
230,29.62329
231,29.6202
232,29.39547
233,29.32215
234,29.23073
235,29.25738
236,29.33561
237,29.29935
238,29.18293
239,29.08757
240,29.05263
241,29.00448
242,29.08749
243,29.06472
244,28.9404
245,28.86119
246,28.77746
247,28.98978
248,29.06101
249,29.02115
250,28.85222
251,28.77693
252,28.71041
253,28.85676
254,28.86475
255,28.86363
256,28.7492
257,28.63836
258,28.59158
259,28.6509
260,28.75111
261,28.74352
262,28.612
263,28.43875
264,28.37627
265,28.30627
266,28.53581
267,28.46134
268,28.48983
269,28.33209
270,28.25102
271,28.14348
272,28.37188
273,28.31774
274,28.28525
275,28.15658
276,28.0767
277,28.03549
278,28.01913
279,28.09267
280,28.07105
281,27.92506
282,27.8567
283,27.79383
284,27.72095
285,27.81682
286,27.83992
287,27.70255
288,27.58394
289,27.5016
290,27.74293
291,27.83341
292,27.82782
293,27.74143
294,27.57017
295,27.52585
296,27.55868
297,27.59625
298,27.543