Folder: 2026-MCM-ICM-AutoPipeline/A题/battery_data/kaggle/oxford

Note: README.md
# MCM 2026 O-Award Battle System 🏆

> **目标：Outstanding Winner (O奖)**  
> 一套完整的美赛多智能体协作系统，为三人战队提供从审题到提交的全流程支持。

---

## 🎯 系统概览

```
┌─────────────────────────────────────────────────────────────────────────────────┐
│                     MCM 2026 O-Award Multi-Agent System                          │
├─────────────────────────────────────────────────────────────────────────────────┤
│                                                                                  │
│   👤 主策师 (Master Strategist)                                                  │
│   ├── @strategist 审题发散                                                       │
│   └── @redcell 质量攻击                                                          │
│                                                                                  │
│   👤 技术导演 (Tech Director)          👤 内容架构师 (Content Architect)          │
│   ├── @executor 代码生成                ├── @executor 论文撰写                   │
│   └── @knowledge:model 模型检索         └── @knowledge:viz 可视化检索            │
│                                                                                  │
│   ════════════════════════════════════════════════════════════════════════════  │
│                                                                                  │
│   📚 知识库: 模型库 | 论文分析 | 可视化规范 | 数据源                             │
│   🛠️ 工具: Qoder/Trae + Claude Opus 4.5 + Nano Banana Pro + Origin              │
│                                                                                  │
└─────────────────────────────────────────────────────────────────────────────────┘
```

---

## 📦 项目结构

```
meisai/
├── .qoder/rules/                    # AI规则层（自动加载）
│   ├── agents.md                    # Agent完整规则（@strategist/@executor/@redcell）
│   ├── mcm_ultimate_system.md       # 主规则+时间线+检查清单
│   └── skills.md                    # Skills调用规则
│
├── .kiro/steering/                  # 人类参考层（手动查阅）
│   ├── modeling-prompts-final.md    # 10大建模提示词
│   ├── modeling-prompts-宏观.md     # 方法论层面决策
│   ├── modeling-prompts微观.md      # 技术实现细节
│   ├── data-sources-and-brainstorm.md # 数据源+脑暴方法
│   ├── battle-quick-reference.md    # 快速参考卡
│   ├── 生成图的提示词.txt            # Nano Banana提示词
│   ├── 人工写作总指南.pdf            # 写作规范+Golden Structure
│   ├── 比赛实战资源调用指南.md       # 资源调用流程图
│   └── 三人战队实战手册.md           # 三人分工手册（打印分发！）
│
├── 知识库/                          # 知识资产层（@knowledge调用）
│   ├── 模型库1.xlsx, 模型库2.xlsx, 模型库3.xlsx  # 300+模型参考
│   ├── C题模型知识库_优化版.xlsx    # C题专用模型索引
│   ├── 论文分析结果_优化版.xlsx     # O奖论文结构分析
│   ├── 可视化知识库.csv             # 图表类型&设计规范
│   └── 分析统计报告.txt             # 统计汇总
│
├── MCMICM/                          # 历年O奖论文原文
│   ├── 2022美赛优秀论文集/
│   ├── 2023/C/
│   └── 2024/C/
│
├── src/                             # 分析代码
│   ├── data/                        # 数据处理模块
│   ├── models/                      # 模型实现
│   ├── analysis/                    # 分析模块
│   └── output/                      # 输出模块


File: oxford_summary.csv
Cell_ID,Total_Cycles,Initial_Capacity_Ah,Final_Capacity_Ah,Avg_Voltage_V,Avg_Temperature_C,Capacity_Fade_Pct
1,78,739.111,560.65,3.74211,40.0452,24.15
2,73,734.819,544.915,3.73502,40.5572,25.84
3,76,735.12,565.857,3.7395,40.4364,23.03
4,47,734.076,581.234,3.74585,40.7957,20.82
5,46,735.336,456.129,3.73988,41.528,37.97
6,46,732.795,579.023,3.74312,41.4674,20.98
7,77,728.746,582.807,3.73624,41.3329,20.03
8,76,727.528,558.958,3.73879,40.6251,23.17